f (Hz);U_C (V);
1;4.021;
2;4.021;
4;4.021;
8;4.021;
10;4.021;
20;4.021;
40;4.021;
80;4.021;
100;4.041;
200;3.921;
400;3.721;
800;3.201;
1000;2.881;
2000;1.921;
4000;1.081;
8000;0.56;
10000;0.44;
20000;0.228;
40000;0.117;
80000;0.06;
100000;0.05;
